Time,Accel_X,Accel_Y,Accel_Z,Gyro_X,Gyro_Y,Gyro_Z
0.00,0.1016,0.6638,-0.7913,-0.21,0.27,0.08
0.11,0.0913,0.6650,-0.7986,-0.32,0.55,-0.31
0.21,0.0894,0.6660,-0.7998,0.33,-1.63,-8.95
0.32,0.0759,0.6831,-0.7922,0.61,0.10,-1.89
0.42,0.0906,0.6702,-0.8049,-0.24,0.82,3.88
0.53,0.0977,0.6641,-0.8008,-0.25,0.74,-0.98
0.63,0.0928,0.6619,-0.7910,-0.05,0.21,-1.13
0.88,0.0869,0.6597,-0.7910,-0.15,0.60,-0.93
0.99,0.0740,0.6616,-0.8262,1.76,5.51,-2.21
1.09,0.0972,0.6621,-0.8120,0.56,-0.34,-0.76
1.20,0.0796,0.6660,-0.7986,0.81,0.07,-5.72
1.30,0.0820,0.6628,-0.8032,-0.15,0.71,-0.41
1.41,0.0808,0.6616,-0.8086,-0.02,0.31,-0.24
1.52,0.0850,0.6638,-0.8022,-0.06,0.44,-0.50
1.62,0.0854,0.6665,-0.7861,-0.33,0.98,-0.32
1.73,0.0896,0.6572,-0.7886,-0.08,0.88,-0.34
1.83,0.0869,0.6711,-0.8015,-0.11,0.31,-0.51
1.94,0.0803,0.6638,-0.8037,-0.43,0.35,-0.37
2.04,0.0864,0.6592,-0.8005,-0.08,0.81,-0.30
2.15,0.0664,0.6650,-0.8069,-0.03,1.02,-0.45
2.25,0.0808,0.6597,-0.8127,-0.16,0.35,-0.45
2.36,0.0813,0.6633,-0.8008,-0.24,0.37,-0.30
2.47,0.0842,0.6602,-0.7979,0.04,0.56,-0.38
2.57,0.0835,0.6638,-0.7944,-0.05,0.89,-0.53
2.68,0.0859,0.6616,-0.8152,-0.18,0.32,-0.51
2.78,0.0781,0.6677,-0.8008,-0.22,0.02,-0.46
2.89,0.0813,0.6641,-0.7930,-0.08,0.76,-0.40
2.99,0.0625,0.6160,-0.7480,-0.20,1.38,-1.43
3.10,0.0830,0.6594,-0.8088,-0.05,0.30,-0.55
3.20,0.0833,0.6584,-0.7939,-0.31,0.43,-0.50
3.31,0.0854,0.6406,-0.8049,-1.91,1.44,-0.18
3.42,0.0886,0.6436,-0.8010,-0.04,0.56,-0.54
3.52,0.0798,0.6606,-0.8076,-0.24,0.54,-0.38
3.63,0.0610,0.6914,-0.8677,-0.01,1.34,-0.79
3.73,0.0879,0.6646,-0.8086,-0.36,0.22,-0.60
3.84,0.0859,0.6555,-0.7832,-0.44,-0.18,0.00
3.94,0.0896,0.6619,-0.8005,-0.19,1.03,-0.45
4.05,0.0793,0.6614,-0.8003,-0.30,0.44,-0.31
4.15,0.0847,0.6677,-0.8018,-0.31,0.28,-0.28
4.26,0.0811,0.6641,-0.7900,-0.22,0.73,-0.34
4.36,0.0833,0.6702,-0.8098,-0.23,0.68,-0.42
4.47,0.0935,0.6631,-0.8105,-0.23,0.22,-0.49
4.58,0.0869,0.6589,-0.7986,-0.06,0.68,-0.35
4.68,0.0642,0.6628,-0.7986,-0.28,0.49,-0.33
4.79,0.0864,0.6570,-0.8005,-0.30,0.85,-0.43
4.89,0.0813,0.6562,-0.8052,0.00,0.39,-0.49
5.00,0.0833,0.6677,-0.7996,0.15,0.89,-0.53
5.10,0.0825,0.6616,-0.7986,-0.28,0.67,-0.37
5.21,0.1028,0.6648,-0.8052,-0.21,0.46,-14.02
5.32,0.0908,0.6650,-0.7947,-0.22,1.24,0.56
5.42,0.0867,0.6643,-0.8083,-0.39,0.82,0.80
5.53,0.1003,0.6536,-0.8057,0.15,0.10,-3.56
5.63,0.0842,0.6665,-0.7954,0.04,0.44,-1.95
5.74,0.0933,0.6621,-0.8110,-0.03,0.81,-0.58
5.84,0.0854,0.6597,-0.7910,-0.50,0.51,-0.32
5.95,0.0850,0.6582,-0.8083,0.02,0.68,-0.44
6.06,0.1055,0.6548,-0.7974,1.87,-0.10,0.88
6.16,0.0962,0.6562,-0.7949,4.19,-1.92,-21.69
6.27,0.0803,0.6606,-0.7896,0.52,1.01,-0.44
6.37,0.0850,0.6685,-0.8098,0.60,0.27,0.59
6.48,0.0901,0.6687,-0.8103,0.98,-0.87,-1.51
6.59,0.0691,0.6406,-0.8062,-0.15,0.56,-0.45
6.69,0.0771,0.6597,-0.8040,-0.39,0.73,-0.60
6.80,0.0894,0.6548,-0.8145,-0.24,0.47,-0.27
6.90,0.0742,0.6606,-0.8103,-0.13,0.43,-0.52
7.01,0.0696,0.6519,-0.8044,-0.13,0.69,-0.40
7.11,0.0688,0.6599,-0.7983,-0.20,0.26,-0.33
7.22,0.0632,0.6594,-0.8000,-0.13,0.60,-0.35
7.32,0.0730,0.6704,-0.7920,-0.07,0.78,-0.35
7.43,0.0708,0.6536,-0.8123,-0.16,0.64,-0.16
7.53,0.0767,0.6602,-0.8074,-0.08,0.36,-0.33
7.64,0.0710,0.6641,-0.8018,-0.15,0.59,-0.47
7.74,0.0715,0.6648,-0.7881,-0.08,0.47,-0.37
7.85,0.0813,0.6628,-0.8245,-0.20,0.52,-0.37
7.96,0.0710,0.6565,-0.8098,1.85,0.31,-0.31
8.06,0.0715,0.6606,-0.8037,0.03,0.94,-0.24
8.17,0.0774,0.6560,-0.8071,-0.08,0.56,-0.52
8.27,0.0750,0.6584,-0.8123,-0.20,0.21,-0.51
8.38,0.0742,0.6636,-0.8030,-0.18,0.69,-0.30
8.48,0.0725,0.6687,-0.8093,-0.04,0.92,-0.27
8.59,0.0703,0.6550,-0.8074,-0.07,0.76,-0.64
8.69,0.0676,0.6587,-0.8066,-0.21,0.60,-0.34
8.80,0.0730,0.6533,-0.7954,-0.19,0.53,-0.47
8.90,0.0693,0.6711,-0.8091,-0.19,0.54,-0.31
9.01,0.0679,0.6409,-0.7949,-0.06,0.43,-0.43
9.11,0.0767,0.6604,-0.8044,-0.24,0.70,-0.24
9.22,0.0759,0.6560,-0.8088,-0.02,0.76,-0.27
9.32,0.0659,0.6528,-0.8088,-0.36,0.25,-0.46
9.43,0.0701,0.6536,-0.8174,-0.12,0.50,-0.27
9.54,0.0664,0.6523,-0.8040,-0.17,0.53,-0.24
9.64,0.0737,0.6575,-0.8003,-0.22,1.07,-0.34
9.75,0.0691,0.6538,-0.8135,-0.56,-0.07,-0.44
9.85,0.0762,0.6511,-0.8093,-0.41,-0.05,-0.53
9.96,0.0728,0.6494,-0.8042,-0.32,0.73,-0.34
10.06,0.0715,0.6624,-0.8052,-0.47,0.31,-0.43
10.17,0.0701,0.6567,-0.8132,1.95,0.52,-0.47
10.27,0.0701,0.6555,-0.8137,-0.27,0.54,-0.37
10.38,0.0654,0.6572,-0.8115,-0.46,0.95,-0.34
10.48,0.0718,0.6567,-0.7974,-0.24,0.47,-0.34
10.59,0.0701,0.6465,-0.8032,-0.04,0.50,-0.24
10.69,0.0701,0.6580,-0.8088,-0.21,0.63,-0.53
10.80,0.0754,0.6548,-0.8066,-0.16,0.37,-0.53
10.90,0.0715,0.6599,-0.8003,-0.27,0.62,-0.34
11.01,0.0686,0.6580,-0.8083,-0.08,0.76,-0.39
11.12,0.0696,0.6548,-0.8093,-0.20,0.96,-0.44
11.22,0.0723,0.6538,-0.8228,-0.27,0.36,-0.66
11.33,0.0623,0.6531,-0.7993,-0.07,0.28,-0.50
11.43,0.0647,0.6565,-0.7961,-0.36,0.86,-0.37
11.54,0.0757,0.6594,-0.7986,-0.03,0.71,-0.49
11.64,0.0691,0.6711,-0.8069,-0.09,0.25,-0.34
11.75,0.0679,0.6611,-0.7979,-0.22,0.54,-0.36
11.85,0.0718,0.6584,-0.8010,-0.32,0.49,-0.37
11.96,0.0723,0.6611,-0.8108,-0.21,0.48,-0.43
12.07,0.0686,0.6584,-0.7864,-0.09,0.84,-0.24
12.17,0.0718,0.6714,-0.8032,-0.14,0.74,-0.44
12.28,0.0706,0.6562,-0.8013,-0.31,0.31,-0.44
12.38,0.0662,0.6599,-0.8010,-0.02,0.40,-0.42
12.49,0.0764,0.6414,-0.8030,-0.15,0.91,-0.28
12.59,0.0681,0.6565,-0.8132,-0.12,0.50,-0.53
12.70,0.0732,0.6428,-0.8066,-0.21,0.39,-0.24
12.80,0.0664,0.6609,-0.7939,0.11,0.76,-0.42
12.91,0.0742,0.6628,-0.7998,-0.06,0.85,-0.43
13.01,0.0828,0.6580,-0.8083,-0.28,0.66,-0.29
13.12,0.0703,0.6594,-0.7974,-0.15,0.69,-0.48
13.23,0.0698,0.6584,-0.8013,-0.15,0.95,-0.42
13.33,0.0693,0.6562,-0.8123,-0.19,0.18,-0.49
13.44,0.0703,0.6575,-0.8044,-0.21,0.16,-0.36
13.54,0.0657,0.6567,-0.7961,-0.11,0.63,-0.39
13.65,0.0706,0.6587,-0.8049,-0.31,0.91,-0.41
13.75,0.0791,0.6504,-0.8118,1.94,0.45,-0.47
13.86,0.0710,0.6582,-0.7949,-0.07,0.32,-0.28
13.96,0.0720,0.6575,-0.7983,-0.31,0.50,-0.37
14.07,0.0681,0.6562,-0.7986,-0.15,0.52,-0.32
14.17,0.0706,0.6580,-0.8042,-0.22,0.73,-0.56
14.28,0.0728,0.6577,-0.8054,-0.05,0.75,-0.20
14.39,0.0757,0.6709,-0.7998,-0.08,0.82,-0.44
14.49,0.0684,0.6575,-0.8154,-0.17,0.43,-0.49
14.60,0.0652,0.6604,-0.8130,-0.15,0.37,-0.44
14.70,0.0745,0.6597,-0.7888,-0.40,0.79,-0.34
14.81,0.0723,0.6572,-0.8108,-1.94,0.82,-0.43
14.91,0.0701,0.6506,-0.8196,-0.32,0.69,-0.30
15.02,0.0664,0.6592,-0.7986,-0.19,0.64,-0.45
15.13,0.0713,0.6553,-0.8054,-0.31,0.74,-0.28
15.23,0.0679,0.6497,-0.8042,0.02,0.26,-0.63
15.34,0.0701,0.6572,-0.8069,-0.16,0.69,-0.37
15.44,0.0735,0.6562,-0.8062,-0.14,0.93,-0.61
15.55,0.0720,0.6572,-0.8252,0.05,0.40,-0.59
15.65,0.0664,0.6418,-0.8054,-0.17,0.60,-0.59
15.76,0.0740,0.6562,-0.8054,-0.04,0.69,-0.40
15.86,0.0720,0.6594,-0.7998,-0.09,0.57,-0.37
15.97,0.0703,0.6553,-0.8049,-0.17,0.58,-0.37
16.08,0.0752,0.6626,-0.8113,-0.11,0.73,-0.31
16.18,0.0686,0.6616,-0.7979,-0.02,0.41,-0.39
16.29,0.0684,0.6616,-0.7983,-0.04,0.85,-0.24
16.39,0.0735,0.6528,-0.8054,-0.06,0.45,-0.38
16.50,0.0737,0.6575,-0.8052,-0.17,0.56,-0.55
16.60,0.0679,0.6570,-0.7986,1.89,0.77,-0.56
16.71,0.0769,0.6504,-0.8135,-0.18,0.82,-0.34
16.81,0.0737,0.6580,-0.8020,-0.16,0.73,-0.30
16.92,0.0725,0.6597,-0.8230,-0.15,0.28,-0.39
17.03,0.0752,0.6572,-0.8040,-0.15,0.98,-0.50
17.13,0.0723,0.6689,-0.8018,-0.22,0.85,-0.49
17.24,0.0723,0.6567,-0.8057,-0.22,0.59,-0.35
17.34,0.0747,0.6558,-0.8162,-0.05,0.75,-0.44
17.45,0.0708,0.6584,-0.8079,-0.15,0.57,-0.24
17.55,0.0693,0.6582,-0.8079,-0.06,0.89,-0.41
17.66,0.0664,0.6697,-0.8005,-0.10,0.57,-0.53
17.76,0.0701,0.6558,-0.8066,0.02,0.35,-0.40
17.87,0.0684,0.6501,-0.8030,-0.15,0.80,-0.37
17.97,0.0732,0.6631,-0.8162,-0.10,0.87,-0.31
18.08,0.0657,0.6470,-0.8137,-0.14,0.28,-0.48
18.18,0.0684,0.6416,-0.8083,-0.31,0.44,-0.21
18.29,0.0730,0.6543,-0.8201,-0.02,0.28,-0.30
18.40,0.0706,0.6533,-0.8113,-0.03,0.54,-0.31
18.50,0.0730,0.6580,-0.7988,-0.09,0.55,-0.39
18.61,0.0684,0.6562,-0.8027,-0.15,0.53,-0.29
18.71,0.0688,0.6638,-0.8115,-0.12,0.73,-0.15
18.82,0.0710,0.6675,-0.7971,-0.28,0.52,-0.39
18.92,0.0728,0.6531,-0.8142,-0.16,0.36,-0.46
19.03,0.0657,0.6545,-0.8057,-0.10,0.44,-0.35
19.13,0.0713,0.6592,-0.8030,-0.32,1.13,-0.25
19.24,0.0710,0.6641,-0.8159,-0.19,0.76,-0.40
19.34,0.0735,0.6538,-0.8113,-0.24,0.44,-0.56
19.45,0.0703,0.6440,-0.8003,-0.16,0.25,-0.48
19.55,0.0710,0.6443,-0.8025,-0.26,0.76,-0.33
19.66,0.0771,0.6553,-0.8108,-0.17,0.79,-0.50
19.76,0.0747,0.6572,-0.7964,-0.21,0.41,-0.41
19.87,0.0640,0.6582,-0.8054,-0.18,0.98,-0.35
19.98,0.0745,0.6538,-0.8101,-0.05,0.38,-0.24
20.08,0.0750,0.6555,-0.7957,-0.08,0.24,-0.44
20.19,0.0696,0.6567,-0.7957,-0.38,0.34,-0.32
20.29,0.0718,0.6599,-0.8027,-0.13,0.69,-0.31
20.40,0.0728,0.6577,-0.8037,-0.28,0.39,-0.42
20.50,0.0732,0.6504,-0.8020,-0.15,0.24,-0.59
20.61,0.0691,0.6709,-0.7866,-0.09,0.59,-0.59
20.71,0.0720,0.6682,-0.8086,-0.20,0.56,-0.61
20.82,0.0684,0.6438,-0.8047,-0.24,0.23,-0.37
20.92,0.0691,0.6582,-0.8159,-0.16,0.72,-0.43
21.03,0.0754,0.6614,-0.8018,-0.03,1.09,-0.49
21.14,0.0730,0.6562,-0.8049,-0.12,0.54,-0.50
21.24,0.0708,0.6543,-0.8042,-0.10,0.50,-0.45
21.35,0.0645,0.6560,-0.8008,-0.21,0.73,-0.50
21.45,0.0710,0.6580,-0.8064,-0.18,0.47,-0.40
21.56,0.0691,0.6494,-0.8096,-0.37,0.41,-0.45
21.66,0.0701,0.6621,-0.8025,-0.32,0.69,-0.36
21.77,0.0708,0.6570,-0.8135,-0.22,0.62,-0.40
21.87,0.0730,0.6521,-0.8071,-0.27,0.37,-0.31
21.98,0.0735,0.6531,-0.8074,-0.25,0.77,-0.42
22.09,0.0698,0.6653,-0.8057,1.90,0.81,-0.47
22.19,0.0698,0.6543,-0.8069,0.06,0.38,-0.31
22.30,0.0669,0.6577,-0.7847,-0.09,0.75,-0.37
22.40,0.0750,0.6616,-0.7822,-0.15,0.88,-0.11
22.51,0.0747,0.6689,-0.8020,-0.21,0.76,-0.35
22.61,0.0662,0.6711,-0.7986,-0.11,0.74,-0.40
22.72,0.0769,0.6565,-0.8115,-0.31,0.53,-0.47
22.82,0.0759,0.6582,-0.8091,-0.21,0.50,-0.44
22.93,0.0671,0.6587,-0.8225,-0.14,0.27,-0.56
23.04,0.0681,0.6533,-0.8074,-0.17,0.44,-0.31
23.14,0.0674,0.6602,-0.8040,-0.15,0.91,-0.38
23.25,0.0659,0.6411,-0.7974,-0.09,0.31,-0.27
23.35,0.0701,0.6616,-0.8062,-0.12,0.65,-0.53
23.46,0.0698,0.6584,-0.8064,-0.18,0.95,-0.22
23.56,0.0725,0.6660,-0.8103,-0.09,0.59,-0.49
23.67,0.0698,0.6465,-0.7839,1.89,0.60,-0.34
23.77,0.0679,0.6626,-0.8052,-0.21,0.55,-0.41
23.88,0.0627,0.6604,-0.8174,-0.26,0.81,-0.30
23.98,0.0706,0.6580,-0.8240,-0.14,0.68,-0.37
24.09,0.0671,0.6584,-0.8052,-0.20,0.74,-0.27
24.20,0.0723,0.6611,-0.8076,-1.95,0.91,-0.20
24.30,0.0715,0.6575,-0.8096,-0.08,0.72,-0.52
24.41,0.0730,0.6470,-0.8062,-0.11,0.19,-0.44
24.51,0.0745,0.6438,-0.8035,-0.18,0.74,-0.34
24.62,0.0688,0.6450,-0.8093,-0.24,0.30,-0.40
24.72,0.0708,0.6438,-0.8098,-0.21,0.91,-0.50
24.83,0.0679,0.6572,-0.8062,-0.15,0.49,-0.35
24.93,0.0723,0.6692,-0.8135,-0.25,0.70,-0.27
25.04,0.0732,0.6694,-0.7900,0.08,0.97,-0.62
25.14,0.0762,0.6431,-0.7993,-1.92,0.71,-0.36
25.25,0.0740,0.6584,-0.7976,-0.21,0.54,-0.44
25.36,0.0703,0.6462,-0.8069,-0.09,0.47,-0.41
25.46,0.0686,0.6592,-0.8022,-0.02,0.46,-0.33
25.57,0.0718,0.6616,-0.8101,-0.21,0.76,-0.49
25.67,0.0686,0.6553,-0.8118,0.09,0.08,-0.60
25.78,0.0708,0.6694,-0.8088,-0.09,0.76,-0.41
25.88,0.0654,0.6589,-0.7993,-0.22,0.79,-0.53
25.99,0.0647,0.6565,-0.8081,-0.07,0.58,-0.42
26.10,0.0732,0.6416,-0.7976,-0.08,0.44,-0.38
26.20,0.0659,0.6604,-0.8013,-0.30,0.47,-0.55
26.31,0.0693,0.6589,-0.8044,-0.21,0.73,-0.56
26.41,0.0771,0.6653,-0.8018,-0.14,0.80,-0.24
26.52,0.0725,0.6582,-0.7966,-0.11,0.37,-0.35
26.62,0.0691,0.6589,-0.7998,-0.17,0.56,-0.28
26.73,0.0662,0.6604,-0.8076,-0.17,0.73,-0.34
26.83,0.0706,0.6516,-0.8062,-0.18,0.53,-0.36
26.94,0.0723,0.6592,-0.8174,-0.13,0.60,-0.44
27.05,0.0713,0.6594,-0.8105,-0.08,1.00,-0.36
27.15,0.0686,0.6538,-0.8113,-0.27,0.82,-0.40
27.26,0.0684,0.6545,-0.7969,-0.13,0.52,-0.53
27.36,0.0627,0.6558,-0.8108,-0.27,0.63,-0.30
27.47,0.0742,0.6599,-0.8049,-0.27,0.73,-0.44
27.57,0.0742,0.6704,-0.8125,-0.03,0.62,-0.32
27.68,0.0732,0.6582,-0.8098,-0.09,0.55,-0.44
27.78,0.0701,0.6533,-0.8025,-0.04,0.76,-0.34
27.89,0.0688,0.6409,-0.7881,-0.41,0.88,-0.28
28.00,0.0706,0.6418,-0.8027,-1.95,0.38,-0.30
28.10,0.0730,0.6506,-0.8054,-0.18,0.57,-0.33
28.21,0.0740,0.6418,-0.8083,-0.18,0.56,-0.45
28.31,0.0710,0.6626,-0.8010,-0.11,0.47,-0.50
28.42,0.0657,0.6714,-0.8040,-0.21,0.35,-0.45
28.52,0.0730,0.6521,-0.8093,-0.24,0.82,-0.31
28.63,0.0718,0.6570,-0.8118,-0.08,0.69,-0.47
28.73,0.0671,0.6565,-0.8035,0.02,0.41,-0.37
28.84,0.0735,0.6558,-0.8083,-0.14,1.02,-0.56
28.94,0.0754,0.6589,-0.8147,-0.15,0.70,-0.39
29.05,0.0710,0.6592,-0.8022,-0.19,0.43,-0.27
29.16,0.0713,0.6543,-0.8064,-0.03,0.47,-0.29
29.26,0.0715,0.6589,-0.8079,-0.18,0.83,-0.23
29.37,0.0701,0.6558,-0.8042,-1.91,0.55,-0.37
29.47,0.0737,0.6602,-0.8074,-0.11,0.42,-0.37
29.58,0.0723,0.6633,-0.8025,-0.21,0.96,-0.48
29.68,0.0759,0.6555,-0.8132,-0.21,0.85,-0.52
29.79,0.0771,0.6565,-0.7954,-0.07,0.59,-0.42
29.89,0.0664,0.6589,-0.8120,-0.11,0.80,-0.31
30.00,0.0715,0.6555,-0.8120,-0.13,0.68,-0.31
30.11,0.0735,0.6594,-0.8201,-0.14,0.38,-0.50
30.21,0.0664,0.6528,-0.7917,-0.43,0.56,-0.47
30.32,0.0698,0.6709,-0.8074,-0.22,0.82,-0.41
30.42,0.0630,0.6536,-0.8157,-0.25,0.40,-0.45
30.53,0.0674,0.6577,-0.8064,-0.22,0.60,-0.37
30.63,0.0713,0.6592,-0.8049,-0.17,1.08,-0.18
30.74,0.0686,0.6541,-0.8145,-0.18,0.26,-0.40
30.84,0.0706,0.6548,-0.7979,-0.27,0.28,-0.44
30.95,0.0669,0.6580,-0.8083,-0.35,0.84,-0.42
31.06,0.0759,0.6604,-0.8086,-0.20,0.78,-0.15
31.16,0.0740,0.6714,-0.8225,-0.03,0.48,-0.47
31.27,0.0688,0.6584,-0.8040,-0.18,0.65,-0.40
31.37,0.0693,0.6672,-0.8110,-0.05,0.72,-0.50
31.48,0.0706,0.6567,-0.8049,-1.93,0.60,-0.42
31.58,0.0681,0.6423,-0.8118,-0.11,0.62,-0.34
31.69,0.0713,0.6602,-0.8232,-0.26,0.44,-0.43
31.79,0.0769,0.6411,-0.8113,-0.02,0.55,-0.21
31.90,0.0769,0.6709,-0.8035,-0.18,0.34,-0.37
32.00,0.0674,0.6416,-0.8230,-0.11,0.32,-0.32
32.11,0.0503,0.6687,-0.8101,-0.20,0.42,-0.47
32.22,0.0688,0.6489,-0.8054,-0.27,0.85,-0.28
32.32,0.0715,0.6440,-0.8074,-0.23,0.64,-0.16
32.43,0.0742,0.6685,-0.7979,-0.05,0.67,-0.37
32.53,0.0696,0.6575,-0.8152,-0.05,0.56,-0.41
32.64,0.0764,0.6548,-0.8103,-0.23,0.37,-0.42
32.74,0.0696,0.6541,-0.8103,-0.20,0.35,-0.47
32.85,0.0745,0.6543,-0.8013,-0.32,0.71,-0.27
32.95,0.0684,0.6572,-0.8059,-0.13,0.53,-0.37
33.06,0.0771,0.6560,-0.8076,-0.23,0.56,-0.45
33.17,0.0725,0.6528,-0.8049,-0.11,0.48,-0.47
33.27,0.0730,0.6580,-0.8037,-0.05,0.62,-0.26
33.38,0.0664,0.6602,-0.8062,-0.26,0.66,-0.37
33.48,0.0728,0.6587,-0.8052,-0.14,0.90,-0.34
33.59,0.0647,0.6433,-0.8008,-0.23,0.68,-0.53
33.69,0.0688,0.6624,-0.8088,0.04,0.50,-0.44
33.80,0.0701,0.6560,-0.8020,-0.21,0.39,-0.38
33.90,0.0706,0.6511,-0.8003,-0.20,0.77,-0.21
34.01,0.0671,0.6562,-0.8057,-0.24,0.73,-0.24
34.11,0.0681,0.6597,-0.8167,-0.18,0.66,-0.59
34.22,0.0757,0.6550,-0.8108,-0.02,0.60,-0.53
34.33,0.0701,0.6511,-0.7949,1.92,0.63,-0.29
34.43,0.0657,0.6572,-0.8013,-0.07,0.57,-0.31
34.54,0.0730,0.6533,-0.8135,-0.30,0.83,-0.18
34.64,0.0696,0.6521,-0.8027,-0.11,0.74,-0.37
34.75,0.0632,0.6672,-0.8062,-0.12,0.78,-0.44
34.85,0.0750,0.6594,-0.8066,-0.18,0.63,-0.39
34.96,0.0740,0.6541,-0.8018,-0.11,0.71,-0.34
35.06,0.0715,0.6584,-0.8035,-0.01,0.57,-0.37
35.17,0.0681,0.6533,-0.8093,-0.05,0.67,-0.37
35.28,0.0684,0.6514,-0.7964,-0.08,0.63,-0.29
35.38,0.0715,0.6594,-0.8083,-0.32,0.53,-0.31
35.49,0.0698,0.6560,-0.8132,-0.30,0.63,-0.21
35.59,0.0686,0.6558,-0.8098,-0.18,0.62,-0.43
35.70,0.0706,0.6584,-0.8076,-0.24,0.84,-0.44
35.80,0.0725,0.6550,-0.8032,-0.21,0.58,-0.29
35.91,0.0752,0.6570,-0.8020,-0.24,0.50,-0.46
36.01,0.0713,0.6599,-0.8062,-0.15,0.72,-0.47
36.12,0.0718,0.6545,-0.8093,1.92,0.58,-0.36
36.22,0.0720,0.6545,-0.8074,-0.21,0.62,-0.31
36.33,0.0686,0.6643,-0.8020,-0.11,0.50,-0.50
36.44,0.0684,0.6567,-0.8059,-0.08,0.65,-0.43
36.54,0.0693,0.6592,-0.8027,-0.29,0.75,-0.36
36.65,0.0718,0.6550,-0.8064,-0.18,0.58,-0.57
36.75,0.0703,0.6562,-0.7991,-0.11,0.47,-0.37
36.86,0.0701,0.6577,-0.8074,-0.21,0.26,-0.47
36.96,0.0715,0.6714,-0.7896,-0.21,0.82,-0.28
37.07,0.0745,0.6567,-0.8093,-0.25,0.67,-0.45
37.17,0.0759,0.6584,-0.7983,-0.34,0.56,-0.34
37.28,0.0701,0.6572,-0.8010,-0.18,0.71,-0.34
37.39,0.0713,0.6550,-0.8054,-0.18,0.32,-0.45
37.49,0.0776,0.6570,-0.8018,-0.24,0.62,-0.51
37.60,0.0667,0.6711,-0.8054,-0.11,0.64,-0.37
37.70,0.0767,0.6562,-0.8049,-0.19,0.73,-0.44
37.81,0.0771,0.6592,-0.8081,-0.22,0.46,-0.55
37.91,0.0713,0.6624,-0.7976,-0.22,0.67,-0.18
38.02,0.0715,0.6560,-0.8083,-0.17,0.59,-0.15
38.12,0.0730,0.6599,-0.8030,-0.29,0.59,-0.41
38.23,0.0662,0.6433,-0.8110,-0.11,0.59,-0.44
38.33,0.0698,0.6616,-0.8025,-0.21,0.47,-0.33
38.44,0.0708,0.6594,-0.8049,-0.22,0.45,-0.60
38.55,0.0696,0.6592,-0.8174,-0.35,0.40,-0.41
38.65,0.0757,0.6572,-0.8059,0.02,0.44,-0.56
38.76,0.0664,0.6570,-0.8064,-0.27,0.57,-0.32
38.86,0.0720,0.6587,-0.8132,-0.22,0.83,-0.44
38.97,0.0779,0.6584,-0.8113,-0.37,0.44,-0.28
39.07,0.0759,0.6562,-0.8057,-0.14,0.34,-0.43
39.18,0.0703,0.6528,-0.8003,0.05,0.50,-0.47
39.28,0.0554,0.6460,-0.7839,-0.40,0.67,-0.16
39.39,0.0715,0.6614,-0.7998,-0.08,0.69,-0.47
39.50,0.0669,0.6599,-0.8059,-0.10,0.46,-0.28
39.60,0.0742,0.6431,-0.8008,1.92,0.76,-0.37
39.71,0.0693,0.6543,-0.8081,-0.18,0.76,-0.36
39.81,0.0686,0.6604,-0.7971,-0.27,0.48,-0.58
39.92,0.0732,0.6592,-0.8123,-0.34,0.73,-0.34
40.02,0.0732,0.6553,-0.7998,-0.20,0.86,-0.38
40.13,0.0718,0.6428,-0.8025,-1.92,0.71,-0.43
40.23,0.0745,0.6646,-0.8118,-0.01,0.66,-0.44
40.34,0.0759,0.6565,-0.8076,-0.11,0.80,-0.32
40.44,0.0625,0.6558,-0.8042,-0.13,0.10,-0.42
40.55,0.0676,0.6584,-0.8140,-0.13,0.53,-0.29
40.66,0.0686,0.6643,-0.8015,-0.30,0.90,-0.37
40.76,0.0757,0.6707,-0.8118,-1.91,0.60,-0.62
40.87,0.0715,0.6470,-0.8015,-0.09,0.60,-0.47
40.97,0.0708,0.6599,-0.8044,-0.12,0.83,-0.41
41.08,0.0703,0.6548,-0.8032,-1.95,0.51,-0.34
41.18,0.0696,0.6694,-0.8076,-0.15,0.42,-0.42
41.29,0.0688,0.6606,-0.8069,-0.19,0.66,-0.32
41.39,0.0640,0.6521,-0.8054,-0.09,0.40,-0.53
41.50,0.0691,0.6675,-0.8069,-0.22,0.37,-0.44
41.60,0.0667,0.6580,-0.8064,-0.24,0.65,-0.37
41.71,0.0725,0.6714,-0.8118,-0.09,0.61,-0.44
41.82,0.0691,0.6555,-0.8083,-0.18,0.35,-0.51
41.92,0.0701,0.6624,-0.8093,-0.26,0.62,-0.30
42.03,0.0696,0.6572,-0.8088,-1.95,0.52,-0.47
42.13,0.0691,0.6582,-0.8049,-0.07,0.51,-0.53
42.24,0.0676,0.6570,-0.8225,-0.09,0.68,-0.41
42.34,0.0649,0.6599,-0.8057,-0.18,0.56,-0.37
42.45,0.0740,0.6680,-0.8123,-0.18,0.83,-0.30
42.55,0.0698,0.6592,-0.7971,-1.95,0.69,-0.38
42.66,0.0703,0.6570,-0.7993,-0.21,0.71,-0.30
42.77,0.0667,0.6582,-0.8057,-0.10,0.63,-0.53
42.87,0.0735,0.6575,-0.8037,-0.13,0.56,-0.30
42.98,0.0757,0.6565,-0.8037,-0.03,0.64,-0.52
43.08,0.0740,0.6597,-0.8054,-0.06,0.74,-0.37
43.19,0.0898,0.6514,-0.8120,-0.08,0.16,-0.44
43.29,0.0703,0.6565,-0.8047,-0.17,0.71,-0.39
43.40,0.0703,0.6560,-0.8010,-0.06,0.59,-0.49
43.50,0.0679,0.6550,-0.8054,-0.11,0.38,-0.38
43.61,0.0740,0.6580,-0.8184,-0.01,0.61,-0.62
43.72,0.0713,0.6555,-0.8035,-0.15,0.32,-0.54
43.82,0.0681,0.6582,-0.8079,-0.08,0.66,-0.50
43.93,0.0688,0.6562,-0.8020,0.05,0.38,-0.33
44.03,0.0701,0.6550,-0.7930,-0.12,0.53,-0.38
44.14,0.0730,0.6619,-0.8157,-0.22,0.73,-0.38
44.24,0.0723,0.6631,-0.8064,-0.08,0.50,-0.68
44.35,0.0669,0.6543,-0.8027,-0.25,0.47,-0.23
44.45,0.0708,0.6616,-0.8027,-0.37,0.50,-0.26
44.56,0.0676,0.6646,-0.8093,-0.03,0.59,-0.37
44.67,0.0720,0.6597,-0.8149,-0.11,0.33,-0.44
44.77,0.0774,0.6416,-0.8005,-0.35,0.42,-0.44
44.88,0.0532,0.6572,-0.7991,-0.06,1.03,-0.48
44.98,0.0742,0.6697,-0.8018,-0.29,0.45,-0.50
45.09,0.0701,0.6631,-0.8049,1.93,0.85,-0.35
45.19,0.0779,0.6597,-0.7983,-0.14,0.47,-0.34
45.30,0.0706,0.6543,-0.8047,-0.24,0.27,-0.34
45.40,0.0647,0.6548,-0.8010,-0.18,0.64,-0.52
45.51,0.0737,0.6609,-0.7925,-0.08,0.91,-0.27
45.61,0.0703,0.6707,-0.7974,-0.24,0.68,-0.56
45.72,0.0659,0.6421,-0.8281,1.92,0.40,-0.50
45.83,0.0671,0.6418,-0.8088,-0.15,0.72,-0.46
45.93,0.0754,0.6687,-0.7983,-0.14,0.80,-0.54
46.04,0.0698,0.6716,-0.8079,-0.11,0.40,-0.35
46.14,0.0737,0.6589,-0.8125,-0.16,0.63,-0.29
46.25,0.0679,0.6602,-0.8018,-0.03,0.40,-0.45
46.35,0.0686,0.6548,-0.8064,-0.20,0.25,-0.44
46.46,0.0657,0.6606,-0.8000,-0.10,0.58,-0.52
46.56,0.0718,0.6577,-0.8135,-0.25,0.60,-0.43
46.67,0.0669,0.6565,-0.8030,-0.02,0.42,-0.39
46.78,0.0674,0.6584,-0.8027,0.08,0.52,-0.46
46.88,0.0742,0.6584,-0.8037,-0.11,0.57,-0.36
46.99,0.0781,0.6570,-0.8066,-1.95,0.84,-0.47
47.09,0.0703,0.6558,-0.8071,-0.21,0.79,-0.45
47.20,0.0774,0.6519,-0.8081,-0.25,0.47,-0.46
47.31,0.0759,0.6553,-0.8040,-0.16,0.53,-0.35
47.41,0.0730,0.6614,-0.8123,-0.13,0.61,-0.50
47.52,0.0676,0.6562,-0.8115,-0.08,0.67,-0.34
47.62,0.0698,0.6580,-0.8113,-0.12,0.38,-0.40
47.73,0.0723,0.6716,-0.8096,-1.86,0.51,-0.34
47.83,0.0737,0.6609,-0.8047,-0.39,0.53,-0.39
47.94,0.0679,0.6616,-0.7996,1.93,0.86,-0.31
48.05,0.0735,0.6541,-0.8096,-0.27,0.72,-0.29
48.15,0.0688,0.6592,-0.8064,-0.06,0.79,-0.33
48.26,0.0737,0.6443,-0.8115,-0.17,0.87,-0.34
48.36,0.0720,0.6521,-0.8047,-0.05,0.40,-0.33
48.47,0.0698,0.6631,-0.8149,-0.15,0.50,-0.39
48.57,0.0725,0.6609,-0.8083,-0.12,0.76,-0.47
48.68,0.0684,0.6636,-0.8018,-0.15,0.66,-0.33
48.78,0.0789,0.6514,-0.8145,-1.92,0.52,-0.47
48.89,0.0659,0.6560,-0.7998,-0.15,0.50,-0.57
48.99,0.0730,0.6604,-0.8069,-0.27,0.65,-0.47
49.10,0.0703,0.6714,-0.8037,-0.21,0.56,-0.49
49.20,0.0720,0.6550,-0.8120,-0.13,0.61,-0.31
49.31,0.0706,0.6562,-0.8113,-0.29,0.57,-0.49
49.42,0.0696,0.6567,-0.8081,-0.13,0.67,-0.51
49.52,0.0688,0.6567,-0.8098,0.02,0.38,-0.35
49.63,0.0662,0.6621,-0.8091,-0.13,0.44,-0.50
49.73,0.0676,0.6650,-0.7930,-0.18,0.55,-0.50
49.84,0.0706,0.6597,-0.8010,-0.10,0.69,-0.27
49.94,0.0686,0.6604,-0.8071,-0.29,0.55,-0.34
50.05,0.0742,0.6619,-0.7998,-0.11,0.73,-0.21
50.15,0.0725,0.6545,-0.8035,-0.08,0.72,-0.44
50.26,0.0654,0.6550,-0.8057,-0.16,0.32,-0.43
50.36,0.0698,0.6536,-0.8018,-0.27,0.48,-0.16
50.47,0.0696,0.6650,-0.8091,-0.11,0.73,-0.45
50.57,0.0713,0.6602,-0.8064,-0.15,0.74,-0.43
50.68,0.0708,0.6587,-0.8120,-0.17,0.53,-0.50
50.79,0.0706,0.6584,-0.8103,-0.17,0.61,-0.50
50.89,0.0681,0.6597,-0.8049,-0.26,0.60,-0.50
51.00,0.0720,0.6584,-0.8079,-0.16,0.34,-0.19
51.10,0.0696,0.6553,-0.7993,-0.09,0.63,-0.41
51.21,0.0757,0.6602,-0.8223,-0.11,0.64,-0.33
51.31,0.0747,0.6567,-0.8052,-0.05,0.80,-0.41
51.42,0.0725,0.6602,-0.8020,-0.05,0.44,-0.41
51.52,0.0703,0.6548,-0.8108,-0.14,0.52,-0.44
51.63,0.0640,0.6616,-0.8115,-0.15,0.90,-0.47
51.73,0.0732,0.6531,-0.8108,-0.28,0.40,-0.50
51.84,0.0750,0.6433,-0.8037,-0.31,0.60,-0.28
51.94,0.0720,0.6587,-0.8022,-0.25,0.89,-0.27
52.05,0.0701,0.6592,-0.8081,-0.25,0.58,-0.33
52.16,0.0701,0.6570,-0.7981,-0.18,0.38,-0.37
52.26,0.0688,0.6609,-0.8047,-0.01,0.72,-0.41
52.37,0.0723,0.6533,-0.8118,-0.15,0.65,-0.29
52.47,0.0684,0.6582,-0.8088,-0.13,0.46,-0.24
52.58,0.0671,0.6602,-0.8076,-0.29,0.44,-0.59
52.69,0.0750,0.6509,-0.8069,-0.27,0.34,-0.57
52.79,0.0713,0.6526,-0.8003,-0.23,0.63,-0.47
52.90,0.0740,0.6545,-0.8174,-0.11,0.76,-0.32
53.00,0.0710,0.6558,-0.8066,-0.29,0.69,-0.53
53.11,0.0723,0.6606,-0.8005,-0.08,0.66,-0.47
53.21,0.0698,0.6560,-0.8035,-0.11,0.54,-0.28
53.32,0.0723,0.6541,-0.8105,1.95,0.54,-0.32
53.42,0.0715,0.6658,-0.8091,-0.08,0.31,-0.36
53.53,0.0691,0.6558,-0.7920,-0.19,0.57,-0.21
53.64,0.0696,0.6553,-0.8076,-0.37,0.42,-0.43
53.74,0.0757,0.6582,-0.8025,-0.16,0.51,-0.58
53.85,0.0708,0.6606,-0.8000,-0.12,0.84,-0.44
53.95,0.0730,0.6550,-0.8135,-0.21,0.94,-0.50
54.06,0.0750,0.6575,-0.8074,-0.14,0.40,-0.45
54.16,0.0737,0.6531,-0.8076,-0.31,0.38,-0.45
54.27,0.0696,0.6594,-0.8083,-0.21,0.56,-0.44
54.37,0.0740,0.6589,-0.8083,-0.26,0.38,-0.56
54.48,0.0728,0.6592,-0.7998,-0.04,0.52,-0.17
54.59,0.0725,0.6604,-0.8108,-0.21,0.82,-0.56
54.69,0.0742,0.6531,-0.7986,-0.10,0.65,-0.49
54.80,0.0720,0.6555,-0.8093,-0.15,0.21,-0.36
54.90,0.0691,0.6572,-0.8113,-0.27,0.46,-0.28
55.01,0.0718,0.6677,-0.8083,-0.27,0.62,-0.47
55.11,0.0708,0.6587,-0.8059,-0.18,0.55,-0.52
55.22,0.0713,0.6699,-0.8093,-0.05,0.66,-0.31
55.32,0.0752,0.6562,-0.8149,-0.11,0.65,-0.33
55.43,0.0752,0.6711,-0.8096,-0.31,0.84,-0.44
55.53,0.0671,0.6711,-0.8035,-0.06,0.64,-0.48
55.64,0.0688,0.6597,-0.8076,-0.01,0.57,-0.35
55.75,0.0742,0.6609,-0.8083,-0.11,0.44,-0.28
55.85,0.0708,0.6565,-0.8115,-0.09,0.43,-0.53
55.96,0.0696,0.6614,-0.7917,-0.11,0.38,-0.33
56.06,0.0732,0.6589,-0.8118,-0.21,0.54,-0.45
56.17,0.0691,0.6582,-0.8010,-0.20,0.40,-0.56
56.27,0.0667,0.6565,-0.8015,-0.17,0.70,-0.18
56.38,0.0657,0.6580,-0.8010,-0.17,0.52,-0.42
56.48,0.0718,0.6545,-0.8030,-0.24,0.47,-0.44
56.59,0.0752,0.6555,-0.8120,-0.30,0.48,-0.50
56.70,0.0688,0.6531,-0.8049,-0.12,0.56,-0.35
56.80,0.0730,0.6702,-0.8262,-0.21,0.28,-0.41
56.91,0.0688,0.6643,-0.8081,-0.12,0.39,-0.37
57.01,0.0745,0.6597,-0.8000,-0.25,1.11,-0.47
57.12,0.0713,0.6570,-0.8115,-0.05,0.81,-0.48
57.22,0.0779,0.6509,-0.8083,-0.17,0.51,-0.50
57.33,0.0708,0.6562,-0.8076,-0.17,0.37,-0.42
57.43,0.0767,0.6562,-0.8098,-0.27,0.74,-0.44
57.54,0.0757,0.6575,-0.8269,-0.14,0.37,-0.48
57.64,0.0686,0.6465,-0.8020,-0.12,0.66,-0.46
57.75,0.0691,0.6611,-0.7964,-0.29,0.97,-0.36
57.85,0.0752,0.6636,-0.8113,-0.25,0.79,-0.23
57.96,0.0664,0.6609,-0.8062,-0.17,0.51,-0.54
58.07,0.0664,0.6555,-0.8118,-0.34,0.79,-0.44
58.17,0.0715,0.6606,-0.8059,-0.21,0.81,-0.51
58.28,0.0740,0.6714,-0.8101,-0.12,0.69,-0.34
58.38,0.0669,0.6589,-0.8135,0.08,0.38,-0.41
58.49,0.0662,0.6570,-0.8054,-0.18,0.88,-0.50
58.59,0.0767,0.6582,-0.8093,-0.22,0.66,-0.42
58.70,0.0730,0.6592,-0.8235,-0.11,0.40,-0.34
58.80,0.0898,0.6506,-0.8262,-0.20,0.36,-0.28
58.91,0.0701,0.6692,-0.8118,-0.21,0.67,-0.47
59.01,0.0664,0.6562,-0.7957,-0.13,0.86,-0.30
59.12,0.0710,0.6631,-0.8093,-0.21,0.74,-0.29
59.22,0.0701,0.6597,-0.8096,-0.05,0.70,-0.36
59.33,0.0720,0.6592,-0.8127,-0.29,0.52,-0.46
59.44,0.0701,0.6560,-0.7991,-0.27,0.73,-0.42
59.54,0.0728,0.6597,-0.8044,-0.18,0.48,-0.35
59.65,0.0740,0.6416,-0.8206,-0.15,0.46,-0.50
59.75,0.0688,0.6409,-0.8113,-0.12,0.35,-0.47
59.86,0.0674,0.6665,-0.8057,0.07,0.66,-0.38
59.96,0.0710,0.6592,-0.8127,-0.08,0.74,-0.56
60.07,0.0710,0.6572,-0.8059,-0.40,0.47,-0.39
60.17,0.0735,0.6628,-0.7881,-0.18,0.68,-0.32
60.28,0.0740,0.6550,-0.8069,-0.07,0.60,-0.52
60.38,0.0740,0.6562,-0.8032,-0.07,0.45,-0.36
60.49,0.0684,0.6604,-0.8071,-0.08,0.29,-0.37
60.59,0.0742,0.6716,-0.7998,-0.37,0.53,-0.61
60.70,0.0688,0.6609,-0.8032,-0.18,0.60,-0.36
60.81,0.0872,0.6570,-0.8091,-0.26,0.25,-0.44
60.91,0.0645,0.6562,-0.8120,-0.25,0.59,-0.37
61.02,0.0728,0.6572,-0.8040,-0.31,0.71,-0.53
61.12,0.0723,0.6558,-0.8088,-0.15,0.55,-0.53
61.23,0.0715,0.6553,-0.7825,-0.11,0.66,-0.46
61.33,0.0718,0.6638,-0.8064,-0.32,0.91,-0.47
61.44,0.0703,0.6592,-0.8044,-0.13,0.45,-0.31
61.54,0.0664,0.6506,-0.8074,-0.13,0.48,-0.27
61.65,0.0771,0.6685,-0.8064,-0.31,0.44,-0.46
61.75,0.0720,0.6704,-0.8010,-0.04,0.84,-0.36
61.86,0.0652,0.6414,-0.8176,-0.30,0.41,-0.44
61.97,0.0696,0.6526,-0.8079,-0.21,0.40,-0.43
62.07,0.0698,0.6541,-0.8083,-0.08,0.62,-0.56
62.18,0.0769,0.6526,-0.8118,-0.30,0.84,-0.34
62.28,0.0754,0.6697,-0.8003,-0.06,0.59,-0.54
62.39,0.0740,0.6689,-0.8057,-0.24,0.37,-0.33
62.49,0.0667,0.6558,-0.8064,-0.25,0.41,-0.21
62.60,0.0747,0.6577,-0.8098,-0.08,0.69,-0.36
62.70,0.0728,0.6604,-0.8018,-0.21,0.47,-0.52
62.81,0.0754,0.6572,-0.8154,-0.11,0.51,-0.41
62.92,0.0720,0.6597,-0.8066,-0.21,0.52,-0.55
63.02,0.0720,0.6519,-0.8127,-0.19,0.50,-0.16
63.13,0.0642,0.6548,-0.8035,-0.26,0.45,-0.34
63.23,0.0710,0.6565,-0.8091,-0.15,0.61,-0.38
63.34,0.0713,0.6619,-0.8113,-0.05,0.85,-0.38
